{
  "resourceType": "Bundle",
  "id": "example18",
  "meta": {
    "profile": [
      "http://jpfhir.jp/fhir/eMunicipalCheckup/StructureDefinition/JP_Bundle_eMunicipalCheckup"
    ]
  },
  "type": "document",
  "identifier": {
    "system": "urn:ietf:rfc:3986",
    "value": "urn:uuid:8a1e91f9-36c8-5af2-6884-960cd5927247"
  },
  "timestamp": "2021-10-21T12:12:21+09:00",
  "entry": [
    {
      "fullUrl": "urn:uuid:fd13ba04-3b58-ac07-fad6-464cec87691d",
      "resource": {
        "resourceType": "Composition",
        "id": "Inline-Instance-for-GOFSH-GENERATED-ID-22-1",
        "meta": {
          "profile": [
            "http://jpfhir.jp/fhir/eMunicipalCheckup/StructureDefinition/JP_Composition_eMunicipalCheckup"
          ]
        },
        "type": {
          "coding": [
            {
              "system": "http://jpfhir.jp/fhir/Common/CodeSystem/doc-typecodes",
              "code": "xx",
              "display": "自治体検診結果報告書"
            }
          ]
        },
        "category": [
          {
            "coding": [
              {
                "system": "http://jpfhir.jp/fhir/eCheckup/CodeSystem/checkup-report-category",
                "code": "51",
                "display": "肺がん検診"
              }
            ]
          }
        ],
        "event": [
          {
            "code": [
              {
                "coding": [
                  {
                    "system": "http://jpfhir.jp/fhir/eCheckup/CodeSystem/checkup-type-code",
                    "code": "3",
                    "display": "一次検診と精密検査"
                  }
                ]
              }
            ],
            "period": {
              "start": "2021-10-01",
              "end": "2021-10-01"
            },
            "detail": [
              {
                "reference": "urn:uuid:3af3232e-1579-d4f6-3578-aa1e799fdcad"
              }
            ]
          }
        ],
        "text": {
          "status": "generated",
          "div": "<div xmlns=\"http://www.w3.org/1999/xhtml\" lang=\"ja\" xml:lang=\"ja\"><p>自治体検診結果報告書</p></div>"
        },
        "language": "ja",
        "extension": [
          {
            "url": "http://hl7.org/fhir/StructureDefinition/composition-clinicaldocument-versionNumber",
            "valueString": "1.0"
          }
        ],
        "identifier": {
          "system": "urn:oid:1.2.392.100495.100.1.11311234567",
          "value": "12345"
        },
        "status": "final",
        "subject": {
          "reference": "urn:uuid:4bc68294-1895-d159-655b-1bc7e83f52f3"
        },
        "encounter": {
          "reference": "urn:uuid:3af3232e-1579-d4f6-3578-aa1e799fdcad"
        },
        "date": "2021-10-21T12:12:21+09:00",
        "author": [
          {
            "reference": "urn:uuid:e5ea153d-fd94-adcc-fb27-df24f394d3fa"
          }
        ],
        "title": "肺がん検診結果のお知らせ",
        "confidentiality": "N",
        "custodian": {
          "reference": "urn:uuid:d1fb6063-8f12-4c2c-922a-7b5e467c8407"
        },
        "section": [
          {
            "title": "添付書類",
            "code": {
              "coding": [
                {
                  "code": "01990",
                  "system": "http://jpfhir.jp/fhir/eCheckup/CodeSystem/section-code",
                  "display": "添付書類セクション"
                }
              ]
            },
            "text": {
              "status": "generated",
              "div": "<div xmlns=\"http://www.w3.org/1999/xhtml\">添付書類：自治体検診検診情報ファイル</div>"
            },
            "entry": [
              {
                "reference": "urn:uuid:d998b928-380e-0700-949b-3b092b3ca3ad"
              }
            ]
          }
        ]
      }
    },
    {
      "fullUrl": "urn:uuid:4bc68294-1895-d159-655b-1bc7e83f52f3",
      "resource": {
        "resourceType": "Patient",
        "id": "Inline-Instance-for-GOFSH-GENERATED-ID-22-2",
        "meta": {
          "profile": [
            "http://jpfhir.jp/fhir/eMunicipalCheckup/StructureDefinition/JP_Patient_eMunicipalCheckup"
          ]
        },
        "text": {
          "status": "generated",
          "div": "<div xmlns=\"http://www.w3.org/1999/xhtml\">健診太郎（ケンシンタロウ） 1950年5月4日 男性</div>"
        },
        "extension": [
          {
            "url": "http://jpfhir.jp/fhir/eCheckup/Extension/StructureDefinition/JP_Age_At_Event",
            "extension": [
              {
                "url": "age",
                "valueAge": {
                  "value": 72,
                  "code": "a",
                  "system": "http://unitsofmeasure.org",
                  "unit": "歳"
                }
              },
              {
                "url": "event",
                "valueReference": {
                  "reference": "urn:uuid:3af3232e-1579-d4f6-3578-aa1e799fdcad"
                }
              }
            ]
          }
        ],
        "identifier": [
          {
            "system": "urn:oid:1.2.392.200119.6.102.11234567890",
            "value": "34567"
          }
        ],
        "name": [
          {
            "extension": [
              {
                "url": "http://hl7.org/fhir/StructureDefinition/iso21090-EN-representation",
                "valueCode": "IDE"
              }
            ],
            "use": "official",
            "text": "健診　太郎",
            "family": "健診",
            "given": [
              "太郎"
            ]
          },
          {
            "extension": [
              {
                "url": "http://hl7.org/fhir/StructureDefinition/iso21090-EN-representation",
                "valueCode": "SYL"
              }
            ],
            "use": "official",
            "text": "ケイシン　タロウ",
            "family": "ケンシン",
            "given": [
              "タロウ"
            ]
          }
        ],
        "telecom": [
          {
            "system": "phone",
            "value": "03-1111-2222",
            "use": "home"
          }
        ],
        "gender": "male",
        "birthDate": "1950-05-04",
        "address": [
          {
            "text": "神奈川県横浜市港区１－２－３",
            "postalCode": "123-4567",
            "country": "JP"
          }
        ]
      }
    },
    {
      "fullUrl": "urn:uuid:e5ea153d-fd94-adcc-fb27-df24f394d3fa",
      "resource": {
        "resourceType": "PractitionerRole",
        "id": "Inline-Instance-for-GOFSH-GENERATED-ID-22-3",
        "practitioner": {
          "reference": "urn:uuid:6c4ef273-df66-00ab-c021-d05c5a19e0ba"
        },
        "organization": {
          "reference": "urn:uuid:d1fb6063-8f12-4c2c-922a-7b5e467c8407"
        }
      }
    },
    {
      "fullUrl": "urn:uuid:6c4ef273-df66-00ab-c021-d05c5a19e0ba",
      "resource": {
        "resourceType": "Practitioner",
        "id": "Inline-Instance-for-GOFSH-GENERATED-ID-22-4",
        "name": [
          {
            "extension": [
              {
                "url": "http://hl7.org/fhir/StructureDefinition/iso21090-EN-representation",
                "valueCode": "IDE"
              }
            ],
            "text": "東京　太郎",
            "family": "東京",
            "given": [
              "太郎"
            ]
          },
          {
            "extension": [
              {
                "url": "http://hl7.org/fhir/StructureDefinition/iso21090-EN-representation",
                "valueCode": "SYL"
              }
            ],
            "text": "トウキョウ　タロウ",
            "family": "トウキョウ",
            "given": [
              "タロウ"
            ]
          }
        ]
      }
    },
    {
      "fullUrl": "urn:uuid:d1fb6063-8f12-4c2c-922a-7b5e467c8407",
      "resource": {
        "resourceType": "Organization",
        "id": "Inline-Instance-for-GOFSH-GENERATED-ID-22-5",
        "identifier": [
          {
            "system": "urn:oid:1.2.392.200119.6.102",
            "value": "1311234567"
          }
        ],
        "type": [
          {
            "coding": [
              {
                "code": "prov",
                "system": "http://terminology.hl7.org/CodeSystem/organization-type"
              }
            ]
          }
        ],
        "name": "厚生労働省第一病院",
        "telecom": [
          {
            "system": "phone",
            "value": "0123-456-7890"
          }
        ],
        "address": [
          {
            "text": "東京都千代田区千代田９－９－９",
            "postalCode": "100-0001",
            "country": "JP"
          }
        ]
      }
    },
    {
      "fullUrl": "urn:uuid:3af3232e-1579-d4f6-3578-aa1e799fdcad",
      "resource": {
        "resourceType": "Encounter",
        "id": "Inline-Instance-for-GOFSH-GENERATED-ID-22-6",
        "extension": [
          {
            "url": "http://jpfhir.jp/fhir/eCheckup/Extension/StructureDefinition/JP_Fiscal_Year_At_Primary_Checkup",
            "valueDate": "2021"
          },
          {
            "url": "http://jpfhir.jp/fhir/eCheckup/Extension/StructureDefinition/JP_Checkup_Fee_Collection_Status",
            "valueString": "本人負担はありません。"
          }
        ],
        "text": {
          "status": "generated",
          "div": "<div xmlns=\"http://www.w3.org/1999/xhtml\"><p>肺がん検診</p><p>2021年10月1日</p></div>"
        },
        "status": "finished",
        "class": {
          "code": "checkup",
          "system": "http://jpfhir.jp/fhir/eCheckup/CodeSystem/encounter-category",
          "display": "健診"
        },
        "serviceType": {
          "coding": [
            {
              "code": "1",
              "system": "http://jpfhir.jp/fhir/eCheckup/CodeSystem/checkup-encounter-type",
              "display": "個別受診"
            }
          ]
        },
        "period": {
          "start": "2021-10-01",
          "end": "2021-10-01"
        },
        "serviceProvider": {
          "reference": "urn:uuid:d1fb6063-8f12-4c2c-922a-7b5e467c8407"
        }
      }
    },
    {
      "fullUrl": "urn:uuid:d998b928-380e-0700-949b-3b092b3ca3ad",
      "resource": {
        "resourceType": "DocumentReference",
        "id": "Inline-Instance-for-GOFSH-GENERATED-ID-22-7",
        "status": "current",
        "description": "自治体検診検診情報ファイル",
        "content": [
          {
            "attachment": {
              "contentType": "text/xml",
              "data": ""
            },
            "format": {
              "code": "cdar2_hc08_v08",
              "system": $attachement-format
            }
          }
        ]
      }
    }
  ]
}
