{
  "resourceType": "Bundle",
  "id": "example22",
  "meta": {
    "profile": [
      "http://jpfhir.jp/fhir/eMunicipalCheckup/StructureDefinition/JP_Bundle_eMunicipalCheckup_551"
    ]
  },
  "type": "document",
  "identifier": {
    "system": "urn:ietf:rfc:3986",
    "value": "urn:uuid:7127d54d-58b3-1b29-36ed-adc8e7b70317"
  },
  "timestamp": "2021-09-23T12:12:21+09:00",
  "entry": [
    {
      "fullUrl": "urn:uuid:fd13ba04-3b58-ac07-fad6-464cec87691d",
      "resource": {
        "resourceType": "Composition",
        "id": "Inline-Instance-for-GOFSH-GENERATED-ID-26-1",
        "language": "ja",
        "extension": [
          {
            "url": "http://hl7.org/fhir/StructureDefinition/composition-clinicaldocument-versionNumber",
            "valueString": "1.0"
          }
        ],
        "text": {
          "status": "generated",
          "div": "<div xmlns=\"http://www.w3.org/1999/xhtml\" lang=\"ja\" xml:lang=\"ja\"><p>自治体検診結果報告書</p></div>"
        },
        "identifier": {
          "system": "urn:oid:1.2.392.100495.100.1.11311234567",
          "value": "12345"
        },
        "status": "final",
        "type": {
          "coding": [
            {
              "code": "xx",
              "system": "http://jpfhir.jp/fhir/Common/CodeSystem/doc-typecodes",
              "display": "自治体検診結果報告書"
            }
          ]
        },
        "category": [
          {
            "coding": [
              {
                "code": "54",
                "system": "http://jpfhir.jp/fhir/eCheckup/CodeSystem/checkup-report-category",
                "display": "子宮頸がん検診"
              }
            ]
          }
        ],
        "subject": {
          "reference": "urn:uuid:4bc68294-1895-d159-655b-1bc7e83f52f3"
        },
        "encounter": {
          "reference": "urn:uuid:3af3232e-1579-d4f6-3578-aa1e799fdcad"
        },
        "date": "2021-10-21T12:12:21+09:00",
        "author": [
          {
            "reference": "urn:uuid:e5ea153d-fd94-adcc-fb27-df24f394d3fa"
          }
        ],
        "title": "子宮頸がん検診結果のお知らせ",
        "confidentiality": "N",
        "custodian": {
          "reference": "urn:uuid:d1fb6063-8f12-4c2c-922a-7b5e467c8407"
        },
        "event": [
          {
            "code": [
              {
                "coding": [
                  {
                    "code": "1",
                    "system": "http://jpfhir.jp/fhir/eCheckup/CodeSystem/checkup-type-code",
                    "display": "一次検診"
                  }
                ]
              }
            ],
            "period": {
              "start": "2021-09-10",
              "end": "2021-09-10"
            },
            "detail": [
              {
                "reference": "urn:uuid:3af3232e-1579-d4f6-3578-aa1e799fdcad"
              }
            ]
          }
        ],
        "section": [
          {
            "title": "検査結果",
            "code": {
              "coding": [
                {
                  "code": "01910",
                  "system": "http://jpfhir.jp/fhir/eCheckup/CodeSystem/section-code",
                  "display": "検査結果セクション"
                }
              ]
            },
            "text": {
              "status": "generated",
              "div": "<div xmlns=\"http://www.w3.org/1999/xhtml\"><ul><li>子宮頸がん検診の視診所見有無 所見あり</li><li>子宮頸がん検診の視診所見内容 異状所見あり</li><li>子宮頸がん検診の内診所見有無 所見なし</li><li>子宮頸がん検診の頸部細胞診検査判定 NILM（陰性）</li><li>子宮頸がん検診の頸部細胞診検査所見 異状を認めず</li><li>子宮頸がん検診の精密検査の対象有無 精密検査不要</li><li>子宮頸がん検診のその他所見 特記事項無し</li><li>子宮頚がん検診による偶発症の有無 なし</li></ul></div>"
            },
            "entry": [
              {
                "reference": "urn:uuid:eac6609a-9821-61f7-3eb9-b7db3d9f5cfc"
              },
              {
                "reference": "urn:uuid:5fc539f6-a188-9020-d95f-3795eeaf88c4"
              }
            ]
          },
          {
            "title": "問診結果",
            "code": {
              "coding": [
                {
                  "code": "01920",
                  "system": "http://jpfhir.jp/fhir/eCheckup/CodeSystem/section-code",
                  "display": "問診結果セクション"
                }
              ]
            },
            "text": {
              "status": "generated",
              "div": "<div xmlns=\"http://www.w3.org/1999/xhtml\"><ul><li>子宮頸がん検診の過去の受診歴 前々年度に受けた</li><li>子宮頸がん検診時の子宮頸がんに係る症状の有無 なし</li></ul></div>"
            }
          }
        ]
      }
    },
    {
      "fullUrl": "urn:uuid:4bc68294-1895-d159-655b-1bc7e83f52f3",
      "resource": {
        "resourceType": "Patient",
        "id": "Inline-Instance-for-GOFSH-GENERATED-ID-26-2",
        "extension": [
          {
            "url": "http://jpfhir.jp/fhir/eCheckup/Extension/StructureDefinition/JP_Age_At_Event",
            "extension": [
              {
                "url": "age",
                "valueAge": {
                  "value": 46,
                  "code": "a",
                  "system": "http://unitsofmeasure.org",
                  "unit": "歳"
                }
              },
              {
                "url": "event",
                "valueReference": {
                  "reference": "urn:uuid:3af3232e-1579-d4f6-3578-aa1e799fdcad"
                }
              }
            ]
          }
        ],
        "text": {
          "status": "generated",
          "div": "<div xmlns=\"http://www.w3.org/1999/xhtml\">健診花子（ケンシンハナコ） 1975年8月7日 女性</div>"
        },
        "identifier": [
          {
            "system": "urn:oid:1.2.392.200119.6.102.11234567890",
            "value": "45678"
          }
        ],
        "name": [
          {
            "extension": [
              {
                "url": "http://hl7.org/fhir/StructureDefinition/iso21090-EN-representation",
                "valueCode": "IDE"
              }
            ],
            "use": "official",
            "text": "健診　花子",
            "family": "健診",
            "given": [
              "花子"
            ]
          },
          {
            "extension": [
              {
                "url": "http://hl7.org/fhir/StructureDefinition/iso21090-EN-representation",
                "valueCode": "SYL"
              }
            ],
            "use": "official",
            "text": "ケンシン　ハナコ",
            "family": "ケンシン",
            "given": [
              "ハナコ"
            ]
          }
        ],
        "telecom": [
          {
            "system": "phone",
            "value": "03-2222-3333",
            "use": "home"
          }
        ],
        "gender": "female",
        "birthDate": "1975-08-07",
        "address": [
          {
            "text": "神奈川県横浜市港区１－２－３",
            "postalCode": "123-4567",
            "country": "JP"
          }
        ]
      }
    },
    {
      "fullUrl": "urn:uuid:e5ea153d-fd94-adcc-fb27-df24f394d3fa",
      "resource": {
        "resourceType": "PractitionerRole",
        "id": "Inline-Instance-for-GOFSH-GENERATED-ID-26-3",
        "practitioner": {
          "reference": "urn:uuid:6c4ef273-df66-00ab-c021-d05c5a19e0ba"
        },
        "organization": {
          "reference": "urn:uuid:d1fb6063-8f12-4c2c-922a-7b5e467c8407"
        }
      }
    },
    {
      "fullUrl": "urn:uuid:6c4ef273-df66-00ab-c021-d05c5a19e0ba",
      "resource": {
        "resourceType": "Practitioner",
        "id": "Inline-Instance-for-GOFSH-GENERATED-ID-26-4",
        "name": [
          {
            "extension": [
              {
                "url": "http://hl7.org/fhir/StructureDefinition/iso21090-EN-representation",
                "valueCode": "IDE"
              }
            ],
            "text": "東京　太郎",
            "family": "東京",
            "given": [
              "太郎"
            ]
          },
          {
            "extension": [
              {
                "url": "http://hl7.org/fhir/StructureDefinition/iso21090-EN-representation",
                "valueCode": "SYL"
              }
            ],
            "text": "トウキョウ　タロウ",
            "family": "トウキョウ",
            "given": [
              "タロウ"
            ]
          }
        ]
      }
    },
    {
      "fullUrl": "urn:uuid:d1fb6063-8f12-4c2c-922a-7b5e467c8407",
      "resource": {
        "resourceType": "Organization",
        "id": "Inline-Instance-for-GOFSH-GENERATED-ID-26-5",
        "identifier": [
          {
            "system": "urn:oid:1.2.392.200119.6.102",
            "value": "1311234567"
          }
        ],
        "type": [
          {
            "coding": [
              {
                "code": "prov",
                "system": "http://terminology.hl7.org/CodeSystem/organization-type"
              }
            ]
          }
        ],
        "name": "厚生労働省第一病院",
        "telecom": [
          {
            "system": "phone",
            "value": "0123-456-7890"
          }
        ],
        "address": [
          {
            "text": "東京都千代田区千代田９－９－９",
            "postalCode": "100-0001",
            "country": "JP"
          }
        ]
      }
    },
    {
      "fullUrl": "urn:uuid:3af3232e-1579-d4f6-3578-aa1e799fdcad",
      "resource": {
        "resourceType": "Encounter",
        "id": "Inline-Instance-for-GOFSH-GENERATED-ID-26-6",
        "extension": [
          {
            "url": "http://jpfhir.jp/fhir/eCheckup/Extension/StructureDefinition/JP_Fiscal_Year_At_Primary_Checkup",
            "valueDate": "2021"
          },
          {
            "url": "http://jpfhir.jp/fhir/eCheckup/Extension/StructureDefinition/JP_Checkup_Fee_Collection_Status",
            "valueString": "本人負担はありません。"
          }
        ],
        "text": {
          "status": "generated",
          "div": "<div xmlns=\"http://www.w3.org/1999/xhtml\"><p>大腸がん健診</p><p>2021年9月10日</p></div>"
        },
        "status": "finished",
        "class": {
          "code": "checkup",
          "system": "http://jpfhir.jp/fhir/eCheckup/CodeSystem/encounter-category",
          "display": "健診"
        },
        "serviceType": {
          "coding": [
            {
              "code": "1",
              "system": "http://jpfhir.jp/fhir/eCheckup/CodeSystem/checkup-encounter-type",
              "display": "個別受診"
            }
          ]
        },
        "period": {
          "start": "2021-09-10",
          "end": "2021-09-10"
        },
        "serviceProvider": {
          "reference": "urn:uuid:d1fb6063-8f12-4c2c-922a-7b5e467c8407"
        }
      }
    },
    {
      "fullUrl": "urn:uuid:eac6609a-9821-61f7-3eb9-b7db3d9f5cfc",
      "resource": {
        "resourceType": "Coverage",
        "id": "Inline-Instance-for-GOFSH-GENERATED-ID-26-7",
        "extension": [
          {
            "url": "http://jpfhir.jp/fhir/core/Extension/StructureDefinition/JP_Coverage_InsuredPersonSymbol",
            "valueString": "１２３４５"
          },
          {
            "url": "http://jpfhir.jp/fhir/core/Extension/StructureDefinition/JP_Coverage_InsuredPersonNumber",
            "valueString": "７８９０１"
          }
        ],
        "text": {
          "status": "generated",
          "div": "<div xmlns=\"http://www.w3.org/1999/xhtml\"><ul><li>保険者番号：06123456</li><li>被保険者証記号・番号：１２３４５・６７８９０</li><li>枝番：01</li><li>患者区分：本人</li><li>有効期限：2020年3月31日</li></ul></div>"
        },
        "status": "active",
        "type": {
          "coding": [
            {
              "code": "1",
              "system": "urn:oid:1.2.392.100495.20.2.61"
            }
          ]
        },
        "beneficiary": {
          "reference": "urn:uuid:4bc68294-1895-d159-655b-1bc7e83f52f3"
        },
        "dependent": "01",
        "relationship": {
          "coding": [
            {
              "code": "1",
              "system": "urn:oid:1.2.392.100495.20.2.62",
              "display": "被保険者"
            }
          ]
        },
        "period": {
          "start": "2018-04-01",
          "end": "2022-03-31"
        },
        "payor": [
          {
            "reference": "urn:uuid:7c9f9f7f-e546-0ac2-6828-a9e0b24e5750"
          }
        ]
      }
    },
    {
      "fullUrl": "urn:uuid:7c9f9f7f-e546-0ac2-6828-a9e0b24e5750",
      "resource": {
        "resourceType": "Organization",
        "id": "Inline-Instance-for-GOFSH-GENERATED-ID-26-8",
        "identifier": [
          {
            "system": "urn:oid:1.2.392.100495.20.3.61",
            "value": "06123456"
          }
        ],
        "type": [
          {
            "coding": [
              {
                "code": "ins",
                "system": "http://terminology.hl7.org/CodeSystem/organization-type"
              }
            ]
          }
        ],
        "name": "サンプル健康保険組合"
      }
    },
    {
      "fullUrl": "urn:uuid:5fc539f6-a188-9020-d95f-3795eeaf88c4",
      "resource": {
        "resourceType": "Observation",
        "id": "Inline-Instance-for-GOFSH-GENERATED-ID-26-9",
        "status": "final",
        "category": [
          {
            "coding": [
              {
                "code": "exam",
                "system": "http://terminology.hl7.org/CodeSystem/observation-category"
              }
            ]
          }
        ],
        "code": {
          "coding": [
            {
              "code": "9N291160700000011",
              "system": $jlac10_cs,
              "display": "子宮頸がん検診の視診所見有無"
            }
          ]
        },
        "subject": {
          "reference": "urn:uuid:4bc68294-1895-d159-655b-1bc7e83f52f3"
        },
        "valueCodeableConcept": {
          "coding": [
            {
              "code": "1",
              "system": "urn:oid:1.2.392.100495.100.2050",
              "display": "所見あり"
            }
          ]
        },
        "component": [
          {
            "code": {
              "coding": [
                {
                  "code": "9N291160800000049",
                  "system": $jlac10_cs,
                  "display": "子宮頸がん検診の視診所見内容"
                }
              ]
            },
            "valueString": "異状所見あり"
          }
        ]
      }
    },
    {
      "fullUrl": "urn:uuid:45e1ed92-8043-33ab-6292-cae8bd0c3c12",
      "resource": {
        "resourceType": "Observation",
        "id": "Inline-Instance-for-GOFSH-GENERATED-ID-26-10",
        "status": "final",
        "category": [
          {
            "coding": [
              {
                "code": "exam",
                "system": "http://terminology.hl7.org/CodeSystem/observation-category"
              }
            ]
          }
        ],
        "code": {
          "coding": [
            {
              "code": "9N296160700000011",
              "system": $jlac10_cs,
              "display": "子宮頸がん検診の内診所見有無"
            }
          ]
        },
        "subject": {
          "reference": "urn:uuid:4bc68294-1895-d159-655b-1bc7e83f52f3"
        },
        "valueCodeableConcept": {
          "coding": [
            {
              "code": "2",
              "system": "urn:oid:1.2.392.100495.100.2050",
              "display": "所見なし"
            }
          ]
        }
      }
    },
    {
      "fullUrl": "urn:uuid:78d30c64-f499-d4e8-72e1-474f308e9a35",
      "resource": {
        "resourceType": "Observation",
        "id": "Inline-Instance-for-GOFSH-GENERATED-ID-26-11",
        "status": "final",
        "category": [
          {
            "coding": [
              {
                "code": "laboratory",
                "system": "http://terminology.hl7.org/CodeSystem/observation-category"
              }
            ]
          }
        ],
        "code": {
          "coding": [
            {
              "code": "7A021",
              "system": "http://jpfhir.jp/fhir/eCheckup/CodeSystem/observationGroup-codes",
              "display": "頸部細胞診検査"
            }
          ]
        },
        "subject": {
          "reference": "urn:uuid:4bc68294-1895-d159-655b-1bc7e83f52f3"
        },
        "specimen": {
          "reference": "urn:uuid:36e8ada9-1fdc-4a4f-2690-6600019372a4"
        },
        "hasMember": [
          {
            "reference": "urn:uuid:335a377b-d926-4a62-8b72-c129849ece4d"
          },
          {
            "reference": "urn:uuid:59a485da-d8d0-f192-50f2-e1405c106ff7"
          }
        ]
      }
    },
    {
      "fullUrl": "urn:uuid:335a377b-d926-4a62-8b72-c129849ece4d",
      "resource": {
        "resourceType": "Observation",
        "id": "Inline-Instance-for-GOFSH-GENERATED-ID-26-12",
        "status": "final",
        "category": [
          {
            "coding": [
              {
                "code": "laboratory",
                "system": "http://terminology.hl7.org/CodeSystem/observation-category"
              }
            ]
          }
        ],
        "code": {
          "coding": [
            {
              "code": "7A021000008543311",
              "system": $jlac10_cs,
              "display": "子宮頸がん検診の頸部細胞診検査判定"
            }
          ]
        },
        "subject": {
          "reference": "urn:uuid:4bc68294-1895-d159-655b-1bc7e83f52f3"
        },
        "valueCodeableConcept": {
          "coding": [
            {
              "code": "1",
              "system": "urn:oid:1.2.392.100495.100.2400",
              "display": "NILM（陰性）"
            }
          ]
        }
      }
    },
    {
      "fullUrl": "urn:uuid:59a485da-d8d0-f192-50f2-e1405c106ff7",
      "resource": {
        "resourceType": "Observation",
        "id": "Inline-Instance-for-GOFSH-GENERATED-ID-26-13",
        "status": "final",
        "category": [
          {
            "coding": [
              {
                "code": "laboratory",
                "system": "http://terminology.hl7.org/CodeSystem/observation-category"
              }
            ]
          }
        ],
        "code": {
          "coding": [
            {
              "code": "7A021160808543349",
              "system": $jlac10_cs,
              "display": "子宮頸がん検診の頸部細胞診検査所見"
            }
          ]
        },
        "subject": {
          "reference": "urn:uuid:4bc68294-1895-d159-655b-1bc7e83f52f3"
        },
        "valueString": "異状を認めず"
      }
    },
    {
      "fullUrl": "urn:uuid:7b5036cf-2303-6eea-eb73-895d00bfb3e4",
      "resource": {
        "resourceType": "Observation",
        "id": "Inline-Instance-for-GOFSH-GENERATED-ID-26-14",
        "status": "final",
        "category": [
          {
            "coding": [
              {
                "code": "exam",
                "system": "http://terminology.hl7.org/CodeSystem/observation-category"
              }
            ]
          }
        ],
        "code": {
          "coding": [
            {
              "code": "9P562000000000011",
              "system": $jlac10_cs,
              "display": "子宮頸がん検診の精密検査の対象有無"
            }
          ]
        },
        "subject": {
          "reference": "urn:uuid:4bc68294-1895-d159-655b-1bc7e83f52f3"
        },
        "valueCodeableConcept": {
          "coding": [
            {
              "code": "1",
              "system": "urn:oid:1.2.392.100495.100.2440",
              "display": "精密検査不要"
            }
          ]
        }
      }
    },
    {
      "fullUrl": "urn:uuid:2388f871-8a27-6094-9fcb-19eaa715c9a7",
      "resource": {
        "resourceType": "Observation",
        "id": "Inline-Instance-for-GOFSH-GENERATED-ID-26-15",
        "status": "final",
        "category": [
          {
            "coding": [
              {
                "code": "exam",
                "system": "http://terminology.hl7.org/CodeSystem/observation-category"
              }
            ]
          }
        ],
        "code": {
          "coding": [
            {
              "code": "9P563160800000049",
              "system": $jlac10_cs,
              "display": "子宮頸がん検診のその他所見"
            }
          ]
        },
        "subject": {
          "reference": "urn:uuid:4bc68294-1895-d159-655b-1bc7e83f52f3"
        },
        "valueString": "特記事項無し"
      }
    },
    {
      "fullUrl": "urn:uuid:a056274a-6f76-c093-a61a-6818f3449b89",
      "resource": {
        "resourceType": "Observation",
        "id": "Inline-Instance-for-GOFSH-GENERATED-ID-26-16",
        "status": "final",
        "category": [
          {
            "coding": [
              {
                "code": "exam",
                "system": "http://terminology.hl7.org/CodeSystem/observation-category"
              }
            ]
          }
        ],
        "code": {
          "coding": [
            {
              "code": "9P564000000000011",
              "system": $jlac10_cs,
              "display": "子宮頚がん検診による偶発症の有無"
            }
          ]
        },
        "subject": {
          "reference": "urn:uuid:4bc68294-1895-d159-655b-1bc7e83f52f3"
        },
        "valueCodeableConcept": {
          "coding": [
            {
              "code": "1",
              "system": "urn:oid:1.2.392.100495.100.2010",
              "display": "なし"
            }
          ]
        }
      }
    },
    {
      "fullUrl": "urn:uuid:8434142b-99c2-2be7-1a4b-56193a846bda",
      "resource": {
        "resourceType": "Observation",
        "id": "Inline-Instance-for-GOFSH-GENERATED-ID-26-17",
        "status": "final",
        "category": [
          {
            "coding": [
              {
                "code": "exam",
                "system": "http://terminology.hl7.org/CodeSystem/observation-category"
              }
            ]
          }
        ],
        "code": {
          "coding": [
            {
              "code": "9P560000000000011",
              "system": $jlac10_cs,
              "display": "子宮頸がん検診の過去の受診歴"
            }
          ]
        },
        "subject": {
          "reference": "urn:uuid:4bc68294-1895-d159-655b-1bc7e83f52f3"
        },
        "valueCodeableConcept": {
          "coding": [
            {
              "code": "2",
              "system": "urn:oid:1.2.392.100495.100.2000",
              "display": "前々年度に受けた"
            }
          ]
        }
      }
    },
    {
      "fullUrl": "urn:uuid:733b2ce1-1c22-b33f-07ad-c7659cb4237f",
      "resource": {
        "resourceType": "Observation",
        "id": "Inline-Instance-for-GOFSH-GENERATED-ID-26-18",
        "status": "final",
        "category": [
          {
            "coding": [
              {
                "code": "exam",
                "system": "http://terminology.hl7.org/CodeSystem/observation-category"
              }
            ]
          }
        ],
        "code": {
          "coding": [
            {
              "code": "9P561000000000011",
              "system": $jlac10_cs,
              "display": "子宮頸がん検診時の子宮頸がんに係る症状の有無"
            }
          ]
        },
        "subject": {
          "reference": "urn:uuid:4bc68294-1895-d159-655b-1bc7e83f52f3"
        },
        "valueCodeableConcept": {
          "coding": [
            {
              "code": "2",
              "system": "urn:oid:1.2.392.100495.100.2052",
              "display": "なし"
            }
          ]
        }
      }
    },
    {
      "fullUrl": "urn:uuid:36e8ada9-1fdc-4a4f-2690-6600019372a4",
      "resource": {
        "resourceType": "Specimen",
        "id": "Inline-Instance-for-GOFSH-GENERATED-ID-26-19",
        "type": {
          "coding": [
            {
              "code": "085",
              "system": "http://jpfhir.jp/fhir/eCheckup/CodeSystem/jlac10-specimen-codes",
              "display": "擦過物"
            }
          ]
        }
      }
    }
  ]
}
